{
  "resourceType": "ExplanationOfBenefit",
  
  "meta": {
      "versionId": "1",
      "lastUpdated": "2024-05-30T08:36:52.343-04:00"
  },
  "contained": [
      {
          "resourceType": "ServiceRequest",
          "id": "referral",
          "status": "completed",
          "intent": "order",
          "subject": {
              "reference": "Patient/2485325"
          },
          "requester": {
              "reference": "Practitioner/2485177"
          },
          "performer": [
              {
                  "reference": "Practitioner/2485177"
              }
          ]
      },
      {
          "resourceType": "Coverage",
          "id": "coverage",
          "status": "active",
          "type": {
              "text": "Medicare"
          },
          "beneficiary": {
              "reference": "Patient/2485325"
          },
          "payor": [
              {
                  "display": "Medicare"
              }
          ]
      }
  ],
  "identifier": [
      {
          "system": "https://bluebutton.cms.gov/resources/variables/clm_id",
          "value": "88403727-9696-ce35-08a0-fc78f4d9380f"
      },
      {
          "system": "https://bluebutton.cms.gov/resources/identifier/claim-group",
          "value": "99999999999"
      }
  ],
  "status": "active",
  "type": {
      "coding": [
          {
              "system": "http://terminology.hl7.org/CodeSystem/claim-type",
              "code": "professional"
          }
      ]
  },
  "use": "claim",
  "patient": {
      "reference": "Patient/2485325"
  },
  "billablePeriod": {
      "start": "2013-12-16T17:40:31-05:00",
      "end": "2014-12-16T17:40:31-05:00"
  },
  "created": "2013-12-16T17:40:31-05:00",
  "insurer": {
      "display": "Medicare"
  },
  "provider": {
      "reference": "Practitioner/2485177"
  },
  "referral": {
      "reference": "#referral"
  },
  "facility": {
      "reference": "Location/2009917",
      "display": "COMPASSIONATE CARE INTERNAL MEDICINE, LLC"
  },
  "claim": {
      "reference": "Claim/2485727"
  },
  "outcome": "complete",
  "careTeam": [
      {
          "sequence": 1,
          "provider": {
              "reference": "Practitioner/2485177"
          },
          "role": {
              "coding": [
                  {
                      "system": "http://terminology.hl7.org/CodeSystem/claimcareteamrole",
                      "code": "primary",
                      "display": "Primary provider"
                  }
              ]
          }
      }
  ],
  "insurance": [
      {
          "focal": true,
          "coverage": {
              "reference": "#coverage",
              "display": "Medicare"
          }
      }
  ],
  "item": [
      {
          "sequence": 1,
          "category": {
              "coding": [
                  {
                      "system": "https://bluebutton.cms.gov/resources/variables/line_cms_type_srvc_cd",
                      "code": "1",
                      "display": "Medical care"
                  }
              ]
          },
          "productOrService": {
              "coding": [
                  {
                      "system": "http://snomed.info/sct",
                      "code": "162673000",
                      "display": "General examination of patient (procedure)"
                  }
              ],
              "text": "General examination of patient (procedure)"
          },
          "servicedPeriod": {
              "start": "2013-12-16T17:25:31-05:00",
              "end": "2013-12-16T17:40:31-05:00"
          },
          "locationCodeableConcept": {
              "coding": [
                  {
                      "system": "http://terminology.hl7.org/CodeSystem/ex-serviceplace",
                      "code": "19",
                      "display": "Off Campus-Outpatient Hospital"
                  }
              ]
          },
          "encounter": [
              {
                  "reference": "Encounter/2485680"
              }
          ]
      },
      {
          "sequence": 2,
          "informationSequence": [
              1
          ],
          "category": {
              "coding": [
                  {
                      "system": "https://bluebutton.cms.gov/resources/variables/line_cms_type_srvc_cd",
                      "code": "1",
                      "display": "Medical care"
                  }
              ]
          },
          "productOrService": {
              "coding": [
                  {
                      "system": "http://snomed.info/sct",
                      "code": "337388004",
                      "display": "Blood glucose testing strips (physical object)"
                  }
              ],
              "text": "Blood glucose testing strips (physical object)"
          },
          "servicedPeriod": {
              "start": "2013-12-16T17:25:31-05:00",
              "end": "2013-12-16T17:40:31-05:00"
          },
          "locationCodeableConcept": {
              "coding": [
                  {
                      "system": "http://terminology.hl7.org/CodeSystem/ex-serviceplace",
                      "code": "19",
                      "display": "Off Campus-Outpatient Hospital"
                  }
              ]
          },
          "net": {
              "value": 6.8,
              "currency": "USD"
          },
          "adjudication": [
              {
                  "category": {
                      "coding": [
                          {
                              "system": "https://bluebutton.cms.gov/resources/codesystem/adjudication",
                              "code": "https://bluebutton.cms.gov/resources/variables/line_coinsrnc_amt",
                              "display": "Line Beneficiary Coinsurance Amount"
                          }
                      ]
                  },
                  "amount": {
                      "value": 1.36,
                      "currency": "USD"
                  }
              },
              {
                  "category": {
                      "coding": [
                          {
                              "system": "https://bluebutton.cms.gov/resources/codesystem/adjudication",
                              "code": "https://bluebutton.cms.gov/resources/variables/line_prvdr_pmt_amt",
                              "display": "Line Provider Payment Amount"
                          }
                      ]
                  },
                  "amount": {
                      "value": 5.44,
                      "currency": "USD"
                  }
              },
              {
                  "category": {
                      "coding": [
                          {
                              "system": "https://bluebutton.cms.gov/resources/codesystem/adjudication",
                              "code": "https://bluebutton.cms.gov/resources/variables/line_sbmtd_chrg_amt",
                              "display": "Line Submitted Charge Amount"
                          }
                      ]
                  },
                  "amount": {
                      "value": 6.8,
                      "currency": "USD"
                  }
              },
              {
                  "category": {
                      "coding": [
                          {
                              "system": "https://bluebutton.cms.gov/resources/codesystem/adjudication",
                              "code": "https://bluebutton.cms.gov/resources/variables/line_alowd_chrg_amt",
                              "display": "Line Allowed Charge Amount"
                          }
                      ]
                  },
                  "amount": {
                      "value": 6.8,
                      "currency": "USD"
                  }
              },
              {
                  "category": {
                      "coding": [
                          {
                              "system": "https://bluebutton.cms.gov/resources/codesystem/adjudication",
                              "code": "https://bluebutton.cms.gov/resources/variables/line_bene_ptb_ddctbl_amt",
                              "display": "Line Beneficiary Part B Deductible Amount"
                          }
                      ]
                  },
                  "amount": {
                      "value": 0,
                      "currency": "USD"
                  }
              },
              {
                  "category": {
                      "coding": [
                          {
                              "system": "https://bluebutton.cms.gov/resources/codesystem/adjudication",
                              "code": "https://bluebutton.cms.gov/resources/variables/line_prcsg_ind_cd",
                              "display": "Line Processing Indicator Code"
                          }
                      ]
                  }
              }
          ]
      },
      {
          "sequence": 3,
          "informationSequence": [
              2
          ],
          "category": {
              "coding": [
                  {
                      "system": "https://bluebutton.cms.gov/resources/variables/line_cms_type_srvc_cd",
                      "code": "1",
                      "display": "Medical care"
                  }
              ]
          },
          "productOrService": {
              "coding": [
                  {
                      "system": "http://loinc.org",
                      "code": "51990-0",
                      "display": "Basic metabolic panel - Blood"
                  }
              ],
              "text": "Basic metabolic panel - Blood"
          },
          "servicedPeriod": {
              "start": "2013-12-16T17:25:31-05:00",
              "end": "2013-12-16T17:40:31-05:00"
          },
          "locationCodeableConcept": {
              "coding": [
                  {
                      "system": "http://terminology.hl7.org/CodeSystem/ex-serviceplace",
                      "code": "19",
                      "display": "Off Campus-Outpatient Hospital"
                  }
              ]
          },
          "net": {
              "value": 74.58,
              "currency": "USD"
          },
          "adjudication": [
              {
                  "category": {
                      "coding": [
                          {
                              "system": "https://bluebutton.cms.gov/resources/codesystem/adjudication",
                              "code": "https://bluebutton.cms.gov/resources/variables/line_coinsrnc_amt",
                              "display": "Line Beneficiary Coinsurance Amount"
                          }
                      ]
                  },
                  "amount": {
                      "value": 14.916,
                      "currency": "USD"
                  }
              },
              {
                  "category": {
                      "coding": [
                          {
                              "system": "https://bluebutton.cms.gov/resources/codesystem/adjudication",
                              "code": "https://bluebutton.cms.gov/resources/variables/line_prvdr_pmt_amt",
                              "display": "Line Provider Payment Amount"
                          }
                      ]
                  },
                  "amount": {
                      "value": 59.664,
                      "currency": "USD"
                  }
              },
              {
                  "category": {
                      "coding": [
                          {
                              "system": "https://bluebutton.cms.gov/resources/codesystem/adjudication",
                              "code": "https://bluebutton.cms.gov/resources/variables/line_sbmtd_chrg_amt",
                              "display": "Line Submitted Charge Amount"
                          }
                      ]
                  },
                  "amount": {
                      "value": 74.58,
                      "currency": "USD"
                  }
              },
              {
                  "category": {
                      "coding": [
                          {
                              "system": "https://bluebutton.cms.gov/resources/codesystem/adjudication",
                              "code": "https://bluebutton.cms.gov/resources/variables/line_alowd_chrg_amt",
                              "display": "Line Allowed Charge Amount"
                          }
                      ]
                  },
                  "amount": {
                      "value": 74.58,
                      "currency": "USD"
                  }
              },
              {
                  "category": {
                      "coding": [
                          {
                              "system": "https://bluebutton.cms.gov/resources/codesystem/adjudication",
                              "code": "https://bluebutton.cms.gov/resources/variables/line_bene_ptb_ddctbl_amt",
                              "display": "Line Beneficiary Part B Deductible Amount"
                          }
                      ]
                  },
                  "amount": {
                      "value": 0,
                      "currency": "USD"
                  }
              },
              {
                  "category": {
                      "coding": [
                          {
                              "system": "https://bluebutton.cms.gov/resources/codesystem/adjudication",
                              "code": "https://bluebutton.cms.gov/resources/variables/line_prcsg_ind_cd",
                              "display": "Line Processing Indicator Code"
                          }
                      ]
                  }
              }
          ]
      },
      {
          "sequence": 4,
          "informationSequence": [
              3
          ],
          "category": {
              "coding": [
                  {
                      "system": "https://bluebutton.cms.gov/resources/variables/line_cms_type_srvc_cd",
                      "code": "1",
                      "display": "Medical care"
                  }
              ]
          },
          "productOrService": {
              "coding": [
                  {
                      "system": "http://loinc.org",
                      "code": "57698-3",
                      "display": "Lipid panel with direct LDL - Serum or Plasma"
                  }
              ],
              "text": "Lipid panel with direct LDL - Serum or Plasma"
          },
          "servicedPeriod": {
              "start": "2013-12-16T17:25:31-05:00",
              "end": "2013-12-16T17:40:31-05:00"
          },
          "locationCodeableConcept": {
              "coding": [
                  {
                      "system": "http://terminology.hl7.org/CodeSystem/ex-serviceplace",
                      "code": "19",
                      "display": "Off Campus-Outpatient Hospital"
                  }
              ]
          },
          "net": {
              "value": 74.58,
              "currency": "USD"
          },
          "adjudication": [
              {
                  "category": {
                      "coding": [
                          {
                              "system": "https://bluebutton.cms.gov/resources/codesystem/adjudication",
                              "code": "https://bluebutton.cms.gov/resources/variables/line_coinsrnc_amt",
                              "display": "Line Beneficiary Coinsurance Amount"
                          }
                      ]
                  },
                  "amount": {
                      "value": 14.916,
                      "currency": "USD"
                  }
              },
              {
                  "category": {
                      "coding": [
                          {
                              "system": "https://bluebutton.cms.gov/resources/codesystem/adjudication",
                              "code": "https://bluebutton.cms.gov/resources/variables/line_prvdr_pmt_amt",
                              "display": "Line Provider Payment Amount"
                          }
                      ]
                  },
                  "amount": {
                      "value": 59.664,
                      "currency": "USD"
                  }
              },
              {
                  "category": {
                      "coding": [
                          {
                              "system": "https://bluebutton.cms.gov/resources/codesystem/adjudication",
                              "code": "https://bluebutton.cms.gov/resources/variables/line_sbmtd_chrg_amt",
                              "display": "Line Submitted Charge Amount"
                          }
                      ]
                  },
                  "amount": {
                      "value": 74.58,
                      "currency": "USD"
                  }
              },
              {
                  "category": {
                      "coding": [
                          {
                              "system": "https://bluebutton.cms.gov/resources/codesystem/adjudication",
                              "code": "https://bluebutton.cms.gov/resources/variables/line_alowd_chrg_amt",
                              "display": "Line Allowed Charge Amount"
                          }
                      ]
                  },
                  "amount": {
                      "value": 74.58,
                      "currency": "USD"
                  }
              },
              {
                  "category": {
                      "coding": [
                          {
                              "system": "https://bluebutton.cms.gov/resources/codesystem/adjudication",
                              "code": "https://bluebutton.cms.gov/resources/variables/line_bene_ptb_ddctbl_amt",
                              "display": "Line Beneficiary Part B Deductible Amount"
                          }
                      ]
                  },
                  "amount": {
                      "value": 0,
                      "currency": "USD"
                  }
              },
              {
                  "category": {
                      "coding": [
                          {
                              "system": "https://bluebutton.cms.gov/resources/codesystem/adjudication",
                              "code": "https://bluebutton.cms.gov/resources/variables/line_prcsg_ind_cd",
                              "display": "Line Processing Indicator Code"
                          }
                      ]
                  }
              }
          ]
      },
      {
          "sequence": 5,
          "informationSequence": [
              4
          ],
          "category": {
              "coding": [
                  {
                      "system": "https://bluebutton.cms.gov/resources/variables/line_cms_type_srvc_cd",
                      "code": "1",
                      "display": "Medical care"
                  }
              ]
          },
          "productOrService": {
              "coding": [
                  {
                      "system": "http://loinc.org",
                      "code": "58410-2",
                      "display": "CBC panel - Blood by Automated count"
                  }
              ],
              "text": "CBC panel - Blood by Automated count"
          },
          "servicedPeriod": {
              "start": "2013-12-16T17:25:31-05:00",
              "end": "2013-12-16T17:40:31-05:00"
          },
          "locationCodeableConcept": {
              "coding": [
                  {
                      "system": "http://terminology.hl7.org/CodeSystem/ex-serviceplace",
                      "code": "19",
                      "display": "Off Campus-Outpatient Hospital"
                  }
              ]
          },
          "net": {
              "value": 74.58,
              "currency": "USD"
          },
          "adjudication": [
              {
                  "category": {
                      "coding": [
                          {
                              "system": "https://bluebutton.cms.gov/resources/codesystem/adjudication",
                              "code": "https://bluebutton.cms.gov/resources/variables/line_coinsrnc_amt",
                              "display": "Line Beneficiary Coinsurance Amount"
                          }
                      ]
                  },
                  "amount": {
                      "value": 14.916,
                      "currency": "USD"
                  }
              },
              {
                  "category": {
                      "coding": [
                          {
                              "system": "https://bluebutton.cms.gov/resources/codesystem/adjudication",
                              "code": "https://bluebutton.cms.gov/resources/variables/line_prvdr_pmt_amt",
                              "display": "Line Provider Payment Amount"
                          }
                      ]
                  },
                  "amount": {
                      "value": 59.664,
                      "currency": "USD"
                  }
              },
              {
                  "category": {
                      "coding": [
                          {
                              "system": "https://bluebutton.cms.gov/resources/codesystem/adjudication",
                              "code": "https://bluebutton.cms.gov/resources/variables/line_sbmtd_chrg_amt",
                              "display": "Line Submitted Charge Amount"
                          }
                      ]
                  },
                  "amount": {
                      "value": 74.58,
                      "currency": "USD"
                  }
              },
              {
                  "category": {
                      "coding": [
                          {
                              "system": "https://bluebutton.cms.gov/resources/codesystem/adjudication",
                              "code": "https://bluebutton.cms.gov/resources/variables/line_alowd_chrg_amt",
                              "display": "Line Allowed Charge Amount"
                          }
                      ]
                  },
                  "amount": {
                      "value": 74.58,
                      "currency": "USD"
                  }
              },
              {
                  "category": {
                      "coding": [
                          {
                              "system": "https://bluebutton.cms.gov/resources/codesystem/adjudication",
                              "code": "https://bluebutton.cms.gov/resources/variables/line_bene_ptb_ddctbl_amt",
                              "display": "Line Beneficiary Part B Deductible Amount"
                          }
                      ]
                  },
                  "amount": {
                      "value": 0,
                      "currency": "USD"
                  }
              },
              {
                  "category": {
                      "coding": [
                          {
                              "system": "https://bluebutton.cms.gov/resources/codesystem/adjudication",
                              "code": "https://bluebutton.cms.gov/resources/variables/line_prcsg_ind_cd",
                              "display": "Line Processing Indicator Code"
                          }
                      ]
                  }
              }
          ]
      }
  ],
  "total": [
      {
          "category": {
              "coding": [
                  {
                      "system": "http://terminology.hl7.org/CodeSystem/adjudication",
                      "code": "submitted",
                      "display": "Submitted Amount"
                  }
              ],
              "text": "Submitted Amount"
          },
          "amount": {
              "value": 367.34,
              "currency": "USD"
          }
      }
  ],
  "payment": {
      "amount": {
          "value": 184.43200000000002,
          "currency": "USD"
      }
  }
}